Apr. 7, 2019   12:03:33
Open Circuit Potential - Time
File: D:\process\data\ocpt1.bin.txt
Data Source:  Experiment
Instrument Model:  CHI900D
Header: 
Note: 

Run Time (sec) = 40

Time/sec, Potential/V

1.000e-1, 4.204e-1
2.000e-1, 4.185e-1
3.000e-1, 4.166e-1
4.000e-1, 4.146e-1
5.000e-1, 4.126e-1
6.000e-1, 4.107e-1
7.000e-1, 4.088e-1
8.000e-1, 4.069e-1
9.000e-1, 4.050e-1
1.000e+0, 4.031e-1
1.100e+0, 4.012e-1
1.200e+0, 3.994e-1
1.300e+0, 3.976e-1
1.400e+0, 3.958e-1
1.500e+0, 3.940e-1
1.600e+0, 3.923e-1
1.700e+0, 3.906e-1
1.800e+0, 3.889e-1
1.900e+0, 3.872e-1
2.000e+0, 3.855e-1
2.100e+0, 3.839e-1
2.200e+0, 3.823e-1
2.300e+0, 3.807e-1
2.400e+0, 3.791e-1
2.500e+0, 3.777e-1
2.600e+0, 3.761e-1
2.700e+0, 3.746e-1
2.800e+0, 3.731e-1
2.900e+0, 3.716e-1
3.000e+0, 3.702e-1
3.100e+0, 3.687e-1
3.200e+0, 3.673e-1
3.300e+0, 3.659e-1
3.400e+0, 3.645e-1
3.500e+0, 3.631e-1
3.600e+0, 3.618e-1
3.700e+0, 3.604e-1
3.800e+0, 3.591e-1
3.900e+0, 3.579e-1
4.000e+0, 3.566e-1
4.100e+0, 3.554e-1
4.200e+0, 3.541e-1
4.300e+0, 3.529e-1
4.400e+0, 3.517e-1
4.500e+0, 3.505e-1
4.600e+0, 3.493e-1
4.700e+0, 3.482e-1
4.800e+0, 3.471e-1
4.900e+0, 3.460e-1
5.000e+0, 3.449e-1
5.100e+0, 3.438e-1
5.200e+0, 3.428e-1
5.300e+0, 3.417e-1
5.400e+0, 3.407e-1
5.500e+0, 3.397e-1
5.600e+0, 3.388e-1
5.700e+0, 3.378e-1
5.800e+0, 3.368e-1
5.900e+0, 3.359e-1
6.000e+0, 3.350e-1
6.100e+0, 3.341e-1
6.200e+0, 3.332e-1
6.300e+0, 3.323e-1
6.400e+0, 3.315e-1
6.500e+0, 3.306e-1
6.600e+0, 3.298e-1
6.700e+0, 3.290e-1
6.800e+0, 3.282e-1
6.900e+0, 3.274e-1
7.000e+0, 3.266e-1
7.100e+0, 3.259e-1
7.200e+0, 3.251e-1
7.300e+0, 3.244e-1
7.400e+0, 3.237e-1
7.500e+0, 3.230e-1
7.600e+0, 3.223e-1
7.700e+0, 3.216e-1
7.800e+0, 3.209e-1
7.900e+0, 3.203e-1
8.000e+0, 3.196e-1
8.100e+0, 3.190e-1
8.200e+0, 3.184e-1
8.300e+0, 3.178e-1
8.400e+0, 3.172e-1
8.500e+0, 3.166e-1
8.600e+0, 3.160e-1
8.700e+0, 3.154e-1
8.800e+0, 3.149e-1
8.900e+0, 3.144e-1
9.000e+0, 3.138e-1
9.100e+0, 3.133e-1
9.200e+0, 3.128e-1
9.300e+0, 3.123e-1
9.400e+0, 3.118e-1
9.500e+0, 3.113e-1
9.600e+0, 3.108e-1
9.700e+0, 3.104e-1
9.800e+0, 3.099e-1
9.900e+0, 3.095e-1
1.000e+1, 3.090e-1
1.010e+1, 3.086e-1
1.020e+1, 3.081e-1
1.030e+1, 3.077e-1
1.040e+1, 3.073e-1
1.050e+1, 3.069e-1
1.060e+1, 3.065e-1
1.070e+1, 3.061e-1
1.080e+1, 3.057e-1
1.090e+1, 3.053e-1
1.100e+1, 3.050e-1
1.110e+1, 3.046e-1
1.120e+1, 3.042e-1
1.130e+1, 3.039e-1
1.140e+1, 3.035e-1
1.150e+1, 3.032e-1
1.160e+1, 3.029e-1
1.170e+1, 3.025e-1
1.180e+1, 3.022e-1
1.190e+1, 3.019e-1
1.200e+1, 3.016e-1
1.210e+1, 3.012e-1
1.220e+1, 3.009e-1
1.230e+1, 3.006e-1
1.240e+1, 3.003e-1
1.250e+1, 3.001e-1
1.260e+1, 2.998e-1
1.270e+1, 2.995e-1
1.280e+1, 2.992e-1
1.290e+1, 2.990e-1
1.300e+1, 2.987e-1
1.310e+1, 2.984e-1
1.320e+1, 2.982e-1
1.330e+1, 2.979e-1
1.340e+1, 2.976e-1
1.350e+1, 2.974e-1
1.360e+1, 2.971e-1
1.370e+1, 2.969e-1
1.380e+1, 2.966e-1
1.390e+1, 2.964e-1
1.400e+1, 2.962e-1
1.410e+1, 2.959e-1
1.420e+1, 2.957e-1
1.430e+1, 2.955e-1
1.440e+1, 2.952e-1
1.450e+1, 2.950e-1
1.460e+1, 2.948e-1
1.470e+1, 2.946e-1
1.480e+1, 2.944e-1
1.490e+1, 2.942e-1
1.500e+1, 2.940e-1
1.510e+1, 2.938e-1
1.520e+1, 2.936e-1
1.530e+1, 2.933e-1
1.540e+1, 2.932e-1
1.550e+1, 2.930e-1
1.560e+1, 2.928e-1
1.570e+1, 2.926e-1
1.580e+1, 2.924e-1
1.590e+1, 2.922e-1
1.600e+1, 2.920e-1
1.610e+1, 2.919e-1
1.620e+1, 2.917e-1
1.630e+1, 2.915e-1
1.640e+1, 2.913e-1
1.650e+1, 2.912e-1
1.660e+1, 2.910e-1
1.670e+1, 2.908e-1
1.680e+1, 2.907e-1
1.690e+1, 2.905e-1
1.700e+1, 2.903e-1
1.710e+1, 2.902e-1
1.720e+1, 2.901e-1
1.730e+1, 2.899e-1
1.740e+1, 2.898e-1
1.750e+1, 2.896e-1
1.760e+1, 2.895e-1
1.770e+1, 2.893e-1
1.780e+1, 2.892e-1
1.790e+1, 2.890e-1
1.800e+1, 2.889e-1
1.810e+1, 2.887e-1
1.820e+1, 2.886e-1
1.830e+1, 2.885e-1
1.840e+1, 2.883e-1
1.850e+1, 2.882e-1
1.860e+1, 2.880e-1
1.870e+1, 2.879e-1
1.880e+1, 2.878e-1
1.890e+1, 2.877e-1
1.900e+1, 2.875e-1
1.910e+1, 2.874e-1
1.920e+1, 2.873e-1
1.930e+1, 2.872e-1
1.940e+1, 2.870e-1
1.950e+1, 2.869e-1
1.960e+1, 2.868e-1
1.970e+1, 2.867e-1
1.980e+1, 2.866e-1
1.990e+1, 2.864e-1
2.000e+1, 2.863e-1
2.010e+1, 2.862e-1
2.020e+1, 2.861e-1
2.030e+1, 2.860e-1
2.040e+1, 2.859e-1
2.050e+1, 2.858e-1
2.060e+1, 2.857e-1
2.070e+1, 2.855e-1
2.080e+1, 2.854e-1
2.090e+1, 2.853e-1
2.100e+1, 2.852e-1
2.110e+1, 2.851e-1
2.120e+1, 2.850e-1
2.130e+1, 2.849e-1
2.140e+1, 2.848e-1
2.150e+1, 2.847e-1
2.160e+1, 2.847e-1
2.170e+1, 2.846e-1
2.180e+1, 2.845e-1
2.190e+1, 2.844e-1
2.200e+1, 2.843e-1
2.210e+1, 2.842e-1
2.220e+1, 2.841e-1
2.230e+1, 2.840e-1
2.240e+1, 2.839e-1
2.250e+1, 2.838e-1
2.260e+1, 2.837e-1
2.270e+1, 2.836e-1
2.280e+1, 2.835e-1
2.290e+1, 2.834e-1
2.300e+1, 2.834e-1
2.310e+1, 2.833e-1
2.320e+1, 2.832e-1
2.330e+1, 2.831e-1
2.340e+1, 2.830e-1
2.350e+1, 2.829e-1
2.360e+1, 2.828e-1
2.370e+1, 2.827e-1
2.380e+1, 2.827e-1
2.390e+1, 2.826e-1
2.400e+1, 2.825e-1
2.410e+1, 2.824e-1
2.420e+1, 2.824e-1
2.430e+1, 2.823e-1
2.440e+1, 2.822e-1
2.450e+1, 2.821e-1
2.460e+1, 2.821e-1
2.470e+1, 2.820e-1
2.480e+1, 2.819e-1
2.490e+1, 2.819e-1
2.500e+1, 2.818e-1
2.510e+1, 2.817e-1
2.520e+1, 2.816e-1
2.530e+1, 2.816e-1
2.540e+1, 2.815e-1
2.550e+1, 2.814e-1
2.560e+1, 2.814e-1
2.570e+1, 2.813e-1
2.580e+1, 2.812e-1
2.590e+1, 2.811e-1
2.600e+1, 2.811e-1
2.610e+1, 2.810e-1
2.620e+1, 2.810e-1
2.630e+1, 2.809e-1
2.640e+1, 2.808e-1
2.650e+1, 2.808e-1
2.660e+1, 2.807e-1
2.670e+1, 2.807e-1
2.680e+1, 2.806e-1
2.690e+1, 2.805e-1
2.700e+1, 2.805e-1
2.710e+1, 2.804e-1
2.720e+1, 2.803e-1
2.730e+1, 2.803e-1
2.740e+1, 2.802e-1
2.750e+1, 2.802e-1
2.760e+1, 2.801e-1
2.770e+1, 2.801e-1
2.780e+1, 2.800e-1
2.790e+1, 2.799e-1
2.800e+1, 2.799e-1
2.810e+1, 2.798e-1
2.820e+1, 2.798e-1
2.830e+1, 2.797e-1
2.840e+1, 2.797e-1
2.850e+1, 2.796e-1
2.860e+1, 2.796e-1
2.870e+1, 2.795e-1
2.880e+1, 2.795e-1
2.890e+1, 2.794e-1
2.900e+1, 2.794e-1
2.910e+1, 2.794e-1
2.920e+1, 2.793e-1
2.930e+1, 2.793e-1
2.940e+1, 2.792e-1
2.950e+1, 2.792e-1
2.960e+1, 2.791e-1
2.970e+1, 2.791e-1
2.980e+1, 2.790e-1
2.990e+1, 2.790e-1
3.000e+1, 2.790e-1
3.010e+1, 2.789e-1
3.020e+1, 2.789e-1
3.030e+1, 2.788e-1
3.040e+1, 2.788e-1
3.050e+1, 2.787e-1
3.060e+1, 2.787e-1
3.070e+1, 2.787e-1
3.080e+1, 2.786e-1
3.090e+1, 2.786e-1
3.100e+1, 2.785e-1
3.110e+1, 2.785e-1
3.120e+1, 2.784e-1
3.130e+1, 2.784e-1
3.140e+1, 2.784e-1
3.150e+1, 2.783e-1
3.160e+1, 2.783e-1
3.170e+1, 2.782e-1
3.180e+1, 2.782e-1
3.190e+1, 2.782e-1
3.200e+1, 2.781e-1
3.210e+1, 2.781e-1
3.220e+1, 2.780e-1
3.230e+1, 2.780e-1
3.240e+1, 2.780e-1
3.250e+1, 2.779e-1
3.260e+1, 2.779e-1
3.270e+1, 2.778e-1
3.280e+1, 2.778e-1
3.290e+1, 2.778e-1
3.300e+1, 2.777e-1
3.310e+1, 2.777e-1
3.320e+1, 2.777e-1
3.330e+1, 2.776e-1
3.340e+1, 2.776e-1
3.350e+1, 2.775e-1
3.360e+1, 2.775e-1
3.370e+1, 2.775e-1
3.380e+1, 2.774e-1
3.390e+1, 2.774e-1
3.400e+1, 2.774e-1
3.410e+1, 2.773e-1
3.420e+1, 2.773e-1
3.430e+1, 2.773e-1
3.440e+1, 2.772e-1
3.450e+1, 2.772e-1
3.460e+1, 2.772e-1
3.470e+1, 2.771e-1
3.480e+1, 2.771e-1
3.490e+1, 2.771e-1
3.500e+1, 2.770e-1
3.510e+1, 2.770e-1
3.520e+1, 2.770e-1
3.530e+1, 2.769e-1
3.540e+1, 2.769e-1
3.550e+1, 2.769e-1
3.560e+1, 2.768e-1
3.570e+1, 2.768e-1
3.580e+1, 2.768e-1
3.590e+1, 2.768e-1
3.600e+1, 2.767e-1
3.610e+1, 2.767e-1
3.620e+1, 2.767e-1
3.630e+1, 2.766e-1
3.640e+1, 2.766e-1
3.650e+1, 2.766e-1
3.660e+1, 2.766e-1
3.670e+1, 2.765e-1
3.680e+1, 2.765e-1
3.690e+1, 2.765e-1
3.700e+1, 2.765e-1
3.710e+1, 2.764e-1
3.720e+1, 2.764e-1
3.730e+1, 2.764e-1
3.740e+1, 2.763e-1
3.750e+1, 2.763e-1
3.760e+1, 2.763e-1
3.770e+1, 2.763e-1
3.780e+1, 2.762e-1
3.790e+1, 2.762e-1
3.800e+1, 2.762e-1
3.810e+1, 2.762e-1
3.820e+1, 2.761e-1
3.830e+1, 2.761e-1
3.840e+1, 2.761e-1
3.850e+1, 2.761e-1
3.860e+1, 2.760e-1
3.870e+1, 2.760e-1
3.880e+1, 2.760e-1
3.890e+1, 2.759e-1
3.900e+1, 2.759e-1
3.910e+1, 2.759e-1
3.920e+1, 2.759e-1
3.930e+1, 2.758e-1
3.940e+1, 2.758e-1
3.950e+1, 2.758e-1
3.960e+1, 2.758e-1
3.970e+1, 2.758e-1
3.980e+1, 2.757e-1
3.990e+1, 2.757e-1
4.000e+1, 2.757e-1
